Folder: CCASL/3.2 Consolidated View of Tabular Data/Data/4- Consolidated_View_Ds/family

Note: 3.2 Consolidated View of Tabular Data/README.md
# 3.2 Consolidated View of Tabular Data

This is the most important part of the work because it contains the programs for extraction, relevance recommendation, table normalization, and data integration. 
These programs can be executed in the following order
- [ ] `Table_Extraction.py`: Captures all the tables in a PDF.
- [ ] `Recommendation.py`: Classifies images of tables based on their relevance using keywords.
- [ ] `textract.py` : Contains the code for **image preprocessing**, and the connection to the Amazon Textract API, but we recommend using the web interface, which also offers a free trial. [AWSTextract](https://aws.amazon.com/fr/textract/)
- [ ] `Normalization.py` & `Samples_Normalization.py`: A global rule-based program designed to normalize certain frequent attributes (e.g., chemical properties) in epoxy-amine publications. A machine learning-based approach with RNN is located in `RNN_column_name.py`.
- [ ] `ChemDataExtractor.py`: is use in `Normalization.py` to detect acronym and abbreviation, notably 'EP' which is usually describe in "Experimental and method"
- [ ] `Data_Integration.py`: Creates an integrated view of the case study from the paper (V(EA), SM_bf, SM_af, Tg).
- [ ] `Data`: Contains samples of intermediate results, more data is given on [zotero](https://zenodo.org/records/15115892)

File: j.compositesb.2019.107487.csv
,Samples,Curing agents,P content (%),Char yield (%) a,LOI (%),UL-94,PHRR reduction (%),Reference,IDDRA/MNA ratio,Tensile strength (MPa),Elongation at break (%),AP-EGDE/PMPS ratio,Residue (700 Â°C) (%),Vectors,Ref
0,TECP,MXDA,2.4,12.0,/,/,52.0,29.0,,,,,,['TECP'],j.compositesb.2019.107487
1,TEEP,MXDA,4.5,43.0,/,,56.0,29.0,,,,,,['TEEP'],j.compositesb.2019.107487
2,DEEP,MXDA,5.8,41.0,,,60.0,29.0,,,,,,['DEEP'],j.compositesb.2019.107487
3,DEEP-Ph,MXDA,5.8,35.0,,,55.0,29.0,,,,,,"['DEEP', 'Ph']",j.compositesb.2019.107487
4,EP1,DDM,6.5,53.0,31.4,V-0,/,37.0,,,,,,['EP1'],j.compositesb.2019.107487
5,EP2,DDM,7.2,58.0,32.8,V-0,/,37.0,,,,,,['EP2'],j.compositesb.2019.107487
6,DOPO-III,DDM,3.9,18.0,31.0,/,/,44.0,,,,,,"['DOPO', 'III']",j.compositesb.2019.107487
7,DOPO-III,BAMPO,5.7,16.0,32.0,/,/,44.0,,,,,,"['DOPO', 'III']",j.compositesb.2019.107487
8,EADI,MHHPA,4.4,5.3,22.8,V-0,/,45.0,,,,,,['EADI'],j.compositesb.2019.107487
9,GEBA/IDDRA/MNA-1,,,,22.8,,,,60.0,34.2,93.9,,,"['GEBA', 'IDDRA', 'MNA(1)']",j.compositesb.2019.107487
10,GEBA/IDDRA/MNA-2,,,,23.0,,,,70.0,21.9,135.7,,,"['GEBA', 'IDDRA', 'MNA(2)']",j.compositesb.2019.107487
11,GEBA/IDDRA/MNA-3,,,,23.6,,,,80.0,7.7,314.1,,,"['GEBA', 'IDDRA', 'MNA(3)']",j.compositesb.2019.107487
12,GEBA/IDDRA/MNA-4,,,,24.2,,,,90.0,0.9,348.0,,,"['GEBA', 'IDDRA', 'MNA(4)']",j.compositesb.2019.107487
13,GEBA/IDDRA,,,,24.8,,,,/,0.3,400.0,,,"['GEBA', 'IDDRA']",j.compositesb.2019.107487
14,AESE20/MHHPA,,,,30.0,,,,,,,80.0,8.0,"['AESE(20)', 'MHHPA']",j.compositesb.2019.107487
15,AESE30/MHHPA,,,,30.2,,,,,,,70.0,13.0,"['AESE(30)', 'MHHPA']",j.compositesb.2019.107487
16,AESE40/MHHPA,,,,28.6,,,,,,,60.0,19.0,"['AESE(40)', 'MHHPA']",j.compositesb.2019.107487
17,AESE50/MHHPA,,,,28.3,,,,,,,50.0,25.0,"['AESE(50)', 'MHHPA']",j.compositesb.2019.107487
18,AP-EGDE/MHHPA,,,,21.6,,,,,,,100.0,0.0,"['AP-EGDE', 'MHHPA']",j.compositesb.2019.107487
19,PAESE30/MHHPA b,,,,25.3,,,,,,,70.0,16.0,"['PAESE(30)', 'MHHPAb']",j.compositesb.2019.107487

File: j.eurpolymj.2021.110282.csv
,Samples,Chemical structure,Curing agent,Tg (°C),Tensile strength (MPa),Td5% (°C),Tg DMA (°C),E'at 25 °C/ MPa,E (200 °C) (MPa),E (300 °C) (MPa),TgTMA/ °C,Resin REEP,Resin DGEBA,Curing agent HDDM,B/°C min ¹,T;/°C,Tp/°C,T / °C,Tensile modulus (GPa),Tensile strain (%),Tensile strength (MPa)_err,Tensile modulus (GPa)_err,Tensile strain (%)_err,Td5%,Td15%,Td30%,Ts,Char yield (%),IPDT,LOI (%),Vectors,Ref
0,REEP,,HDDM,320.0,77.8,319.9,,,,,,,,,,,,,,,,,,,,,,,,,['REEP'],j.eurpolymj.2021.110282
1,TEU-EP,,33DDS,203.0,-,325.3,,,,,,,,,,,,,,,,,,,,,,,,,"['TEU', 'EP']",j.eurpolymj.2021.110282
2,TPEU-EP,,33DDS,168.4,-,338.0,,,,,,,,,,,,,,,,,,,,,,,,,"['TPEU', 'EP']",j.eurpolymj.2021.110282
3,DGED,O,DDM,205.0,83.0,335.0,,,,,,,,,,,,,,,,,,,,,,,,,['DGED'],j.eurpolymj.2021.110282
4,DGEM,,44DDS,279.0,-,402.0,,,,,,,,,,,,,,,,,,,,,,,,,['DGEM'],j.eurpolymj.2021.110282
5,DEU-EP,,DDM,114.4,-,341.0,,,,,,,,,,,,,,,,,,,,,,,,,"['DEU', 'EP']",j.eurpolymj.2021.110282
6,TEUP-EP,O,DDM,203.7,-,320.3,,,,,,,,,,,,,,,,,,,,,,,,,"['TEUP', 'EP']",j.eurpolymj.2021.110282
7,GSPZ-EP,o o,DDM,187.0,63.5,331.0,,,,,,,,,,,,,,,,,,,,,,,,,"['GSPZ', 'EP']",j.eurpolymj.2021.110282
8,DGEBG,o,HDDM,111.0,-,-,,,,,,,,,,,,,,,,,,,,,,,,,['DGEBG'],j.eurpolymj.2021.110282
9,DGEVA,O C,HDDM,107.0,-,341.0,,,,,,,,,,,,,,,,,,,,,,,,,['DGEVA'],j.eurpolymj.2021.110282
10,DGEBA/ HDDM,,,,63.6,,161.4,2445.0,40.6,-,301.9,-,10.0,2.73,5.0,46.3,104.2,156.4,2.3,3.7,9.3,0.1,1.0,348.1,359.35,369.04,176.7,4.2,438.5,21.0,"['DGEBA', 'HDDM']",j.eurpolymj.2021.110282
11,REEP/ DGEBA/ HDDM,,,,70.8,,206.4,1928.0,407.3,-,187.5,,,,,,,,2.5,3.5,15.9,0.1,0.7,335.1,347.7,358.44,171.1,9.4,508.1,22.8,"['REEP', 'DGEBA', 'HDDM']",j.eurpolymj.2021.110282
12,REEP/ HDDM,,,,77.8,,320.0,1864.0,637.4,363.0,149.4,10.0,-,3.65,5.0,55.6,87.2,120.8,2.5,4.5,18.9,0.2,1.5,319.9,334.86,347.83,165.0,12.4,553.8,24.3,"['REEP', 'HDDM']",j.eurpolymj.2021.110282

File: j.matchemphys.2014.11.044.csv
,Samples,Epoxy (wt%),Microcapsules (wt%),WCl6 (wt%),CNTs (wt%),Modulus (GPa),Hardness (GPa),Plasticity index,Vectors,Ref
0,Ep,100.0,-,-,-,3.96,0.174,0.59,['Ep'],j.matchemphys.2014.11.044
1,Ep-CNT,98.0,-,-,2.0,4.5,0.253,0.57,"['Ep', 'CNT']",j.matchemphys.2014.11.044
2,Ep-CNT-Caps,71.0,15.0,12.0,2.0,4.32,0.22,0.6,"['Ep', 'CNT', 'Caps']",j.matchemphys.2014.11.044
3,Ep-Caps,73.0,15.0,12.0,-,3.87,0.157,0.64,"['Ep', 'Caps']",j.matchemphys.2014.11.044